trial,image,category,phase,valence,arousal,rating_rt,participant_id,session
0,8200.jpg,positive,baseline,5.0,6.0,10.003575799999453,11,2
1,5830.jpg,positive,baseline,6.0,5.0,3.834992499998407,11,2
2,7020.jpg,neutral,baseline,5.0,2.0,4.175674199999776,11,2
3,7502.jpg,positive,baseline,6.0,7.0,3.3783688000003167,11,2
4,5780.jpg,positive,baseline,5.0,2.0,7.380214500000875,11,2
5,9413.jpg,negative,baseline,4.0,5.0,7.212320200000249,11,2
6,7640.jpg,neutral,baseline,5.0,6.0,3.6404737000011664,11,2
7,9254.jpg,negative,baseline,4.0,7.0,4.552831799999694,11,2
8,6563.jpg,negative,baseline,4.0,6.0,2.422153600000456,11,2
9,9040.jpg,negative,baseline,3.0,8.0,4.6185644999986835,11,2
10,7270.jpg,positive,baseline,5.0,3.0,3.9303773999999976,11,2
11,9220.jpg,negative,baseline,4.0,6.0,3.886558899999727,11,2
12,7037.jpg,neutral,baseline,5.0,3.0,2.961465999998836,11,2
13,5910.jpg,positive,baseline,5.0,6.0,2.49945039999875,11,2
14,7035.jpg,neutral,baseline,5.0,2.0,2.616103700000167,11,2
15,7077.jpg,neutral,baseline,5.0,3.0,1.986223699999755,11,2
16,7179.jpg,neutral,baseline,5.0,3.0,3.280211400000553,11,2
17,2550.jpg,positive,baseline,6.0,6.0,3.998578599999746,11,2
18,6560.jpg,negative,baseline,4.0,7.0,2.6769574000009015,11,2
19,9940.jpg,negative,baseline,5.0,6.0,3.2186916999999085,11,2
20,7186.jpg,neutral,baseline,5.0,2.0,2.3667433000009623,11,2
21,9910.jpg,negative,baseline,5.0,6.0,4.924903299999642,11,2
22,9140.jpg,negative,baseline,4.0,7.0,3.1737954000000173,11,2
23,7150.jpg,neutral,baseline,5.0,2.0,2.2802587000005587,11,2
24,7247.jpg,neutral,baseline,5.0,3.0,7.183514300000752,11,2
25,5833.jpg,positive,baseline,5.0,2.0,2.9785317000005307,11,2
26,7211.jpg,neutral,baseline,5.0,2.0,2.081087299999126,11,2
27,7050.jpg,neutral,baseline,5.0,2.0,4.932106800000838,11,2
28,9421.jpg,negative,baseline,4.0,6.0,6.797866700000668,11,2
29,7484.jpg,neutral,baseline,4.0,6.0,3.1419559000005393,11,2
30,8190.jpg,positive,baseline,5.0,3.0,4.311442899999747,11,2
31,8010.jpg,neutral,baseline,4.0,6.0,2.3509671000010712,11,2
32,5831.jpg,positive,baseline,5.0,5.0,4.001653900000747,11,2
33,5600.jpg,positive,baseline,5.0,2.0,4.76082249999854,11,2
34,5700.jpg,positive,baseline,5.0,6.0,5.344899100000475,11,2
35,7287.jpg,neutral,baseline,4.0,5.0,7.067906199999925,11,2
36,5825.jpg,positive,baseline,5.0,3.0,5.270608700000594,11,2
37,5210.jpg,positive,baseline,6.0,3.0,5.820854599998711,11,2
38,7161.jpg,neutral,baseline,5.0,3.0,3.741007800001171,11,2
39,5760.jpg,positive,baseline,6.0,4.0,4.823562399998991,11,2
40,9571.jpg,negative,baseline,3.0,6.0,4.986783500000456,11,2
41,9921.jpg,negative,baseline,4.0,7.0,6.059328399998776,11,2
42,8496.jpg,positive,baseline,5.0,5.0,6.81193919999896,11,2
43,6540.jpg,negative,baseline,4.0,6.0,3.324109099999987,11,2
44,9414.jpg,negative,baseline,4.0,6.0,4.189303200000722,11,2
45,7950.jpg,neutral,baseline,5.0,2.0,2.6934723000013037,11,2
46,9322.jpg,negative,baseline,4.0,5.0,3.169771700000638,11,2
47,8420.jpg,positive,baseline,5.0,3.0,7.568147699999827,11,2
48,7025.jpg,neutral,baseline,5.0,2.0,1.939390800000183,11,2
49,7041.jpg,neutral,baseline,5.0,2.0,2.2208879999998317,11,2
50,6570.jpg,negative,baseline,5.0,4.0,4.84583930000008,11,2
51,9800.jpg,negative,baseline,5.0,3.0,3.7775340999996843,11,2
52,9210.jpg,neutral,baseline,5.0,3.0,3.843392599999788,11,2
53,8501.jpg,positive,baseline,5.0,5.0,4.884445900001083,11,2
54,9901.jpg,negative,baseline,5.0,5.0,8.316998799999055,11,2
55,7175.jpg,neutral,baseline,5.0,2.0,4.030419100001382,11,2
56,6520.jpg,negative,baseline,4.0,6.0,6.234505399999762,11,2
57,9560.jpg,negative,baseline,4.0,8.0,4.9875635000007605,11,2
58,8170.jpg,positive,baseline,5.0,3.0,4.092617500000415,11,2
59,8370.jpg,positive,baseline,6.0,6.0,4.09225570000126,11,2
0,9254.jpg,negative,regulation,4.0,6.0,5.520622800000638,11,2
1,9800.jpg,negative,regulation,5.0,2.0,8.605998999999429,11,2
2,6570.jpg,negative,regulation,5.0,3.0,3.510288399998899,11,2
3,9040.jpg,negative,regulation,4.0,7.0,3.8798593999999866,11,2
4,9140.jpg,negative,regulation,3.0,7.0,5.4822075000010955,11,2
5,9571.jpg,negative,regulation,3.0,7.0,4.9768839999997,11,2
6,9421.jpg,negative,regulation,3.0,6.0,7.244735700000092,11,2
7,6540.jpg,negative,regulation,5.0,6.0,6.203719099999944,11,2
8,9921.jpg,negative,regulation,5.0,7.0,7.248962399999073,11,2
9,9901.jpg,negative,regulation,5.0,5.0,2.5113500999996177,11,2
10,6563.jpg,negative,regulation,5.0,5.0,6.883550000000469,11,2
11,9560.jpg,negative,regulation,3.0,7.0,8.684401900000012,11,2
12,9220.jpg,negative,regulation,4.0,6.0,8.14955419999933,11,2
13,9910.jpg,negative,regulation,5.0,6.0,10.001089600000341,11,2
14,9414.jpg,negative,regulation,4.0,5.0,7.519633899999462,11,2
15,6560.jpg,negative,regulation,4.0,5.0,4.749490000000151,11,2
16,9413.jpg,negative,regulation,5.0,5.0,5.249281000000337,11,2
17,9940.jpg,negative,regulation,5.0,3.0,5.042611999999281,11,2
18,6520.jpg,negative,regulation,4.0,6.0,3.736118599999827,11,2
19,9322.jpg,negative,regulation,4.0,7.0,4.776440900001035,11,2
