trial,image,category,phase,valence,arousal,rating_rt,participant_id,session
0,2311.jpg,positive,baseline,4.0,0.0,10.00187180005014,8,1
1,7018.jpg,neutral,baseline,3.0,4.0,5.106021400075406,8,1
2,3030.jpg,negative,baseline,2.0,6.0,5.3199823999311775,8,1
3,6350.jpg,negative,baseline,4.0,6.0,6.197635499993339,8,1
4,2377.jpg,neutral,baseline,7.0,2.0,7.792252799961716,8,1
5,3101.jpg,negative,baseline,1.0,4.0,5.1280303000239655,8,1
6,3350.jpg,negative,baseline,3.0,4.0,7.202212400035933,8,1
7,1920.jpg,positive,baseline,6.0,5.0,6.874744400032796,8,1
8,7004.jpg,neutral,baseline,7.0,3.0,7.718082400038838,8,1
9,2205.jpg,negative,baseline,2.0,3.0,9.29314369999338,8,1
10,7017.jpg,neutral,baseline,4.0,3.0,6.788087100023404,8,1
11,6212.jpg,negative,baseline,1.0,7.0,5.154119099956006,8,1
12,3225.jpg,negative,baseline,2.0,5.0,7.103744399966672,8,1
13,7003.jpg,neutral,baseline,5.0,2.0,9.185373100102879,8,1
14,2050.jpg,positive,baseline,6.0,1.0,6.397694100043736,8,1
15,2703.jpg,negative,baseline,4.0,7.0,7.677274200017564,8,1
16,5510.jpg,neutral,baseline,7.0,2.0,6.618102999986149,8,1
17,3301.jpg,negative,baseline,2.0,6.0,4.253175000078045,8,1
18,1710.jpg,positive,baseline,8.0,6.0,10.003880599979311,8,1
19,3180.jpg,negative,baseline,4.0,6.0,5.97802910010796,8,1
20,2840.jpg,neutral,baseline,3.0,4.0,6.742440899950452,8,1
21,2095.jpg,negative,baseline,1.0,6.0,7.597502599935979,8,1
22,2540.jpg,positive,baseline,7.0,4.0,8.62148089997936,8,1
23,2393.jpg,neutral,baseline,5.0,4.0,5.822014900040813,8,1
24,2530.jpg,positive,baseline,8.0,6.0,8.071066300035454,8,1
25,1440.jpg,positive,baseline,7.0,4.0,4.345247900113463,8,1
26,3195.jpg,negative,baseline,3.0,4.0,2.9599714999785647,8,1
27,7002.jpg,neutral,baseline,6.0,1.0,5.1503800000064075,8,1
28,7012.jpg,neutral,baseline,6.0,2.0,5.723574900068343,8,1
29,2154.jpg,positive,baseline,7.0,4.0,4.217742500011809,8,1
30,2058.jpg,positive,baseline,6.0,4.0,8.829903799924068,8,1
31,2091.jpg,positive,baseline,8.0,6.0,6.3125784000149,8,1
32,5532.jpg,neutral,baseline,7.0,2.0,9.584548600018024,8,1
33,2332.jpg,positive,baseline,6.0,2.0,10.003731400007382,8,1
34,5920.jpg,neutral,baseline,8.0,8.0,4.542411000002176,8,1
35,2200.jpg,neutral,baseline,5.0,4.0,8.877942799939774,8,1
36,6360.jpg,negative,baseline,2.0,6.0,7.151637099916115,8,1
37,7009.jpg,neutral,baseline,5.0,2.0,4.645711399964057,8,1
38,1610.jpg,positive,baseline,7.0,6.0,10.004995299968868,8,1
39,1441.jpg,positive,baseline,6.0,3.0,5.071619499940425,8,1
40,2360.jpg,positive,baseline,6.0,1.0,9.147751800017431,8,1
41,2340.jpg,positive,baseline,6.0,4.0,10.002581399981864,8,1
42,2150.jpg,positive,baseline,5.0,3.0,10.003447900060564,8,1
43,6313.jpg,negative,baseline,3.0,6.0,5.621950900065713,8,1
44,2347.jpg,positive,baseline,6.0,5.0,6.619006199995056,8,1
45,2101.jpg,neutral,baseline,4.0,4.0,8.493251499952748,8,1
46,3005.1.jpg,negative,baseline,1.0,7.0,4.444082300062291,8,1
47,3530.jpg,negative,baseline,3.0,7.0,7.840216299984604,8,1
48,3103.jpg,negative,baseline,2.0,4.0,7.681967299897224,8,1
49,7000.jpg,neutral,baseline,7.0,2.0,4.703592300065793,8,1
50,7006.jpg,neutral,baseline,7.0,2.0,7.083304200088605,8,1
51,2749.jpg,neutral,baseline,6.0,3.0,6.755935499910265,8,1
52,1460.jpg,positive,baseline,8.0,4.0,6.394345099921338,8,1
53,3500.jpg,negative,baseline,4.0,6.0,4.440951499971561,8,1
54,3230.jpg,negative,baseline,3.0,4.0,7.059586599934846,8,1
55,2570.jpg,neutral,baseline,5.0,3.0,7.810174599988386,8,1
56,2411.jpg,neutral,baseline,8.0,6.0,5.540793200023472,8,1
57,2209.jpg,positive,baseline,4.0,6.0,5.613059399998747,8,1
58,2800.jpg,negative,baseline,1.0,6.0,4.984702299931087,8,1
59,1750.jpg,positive,baseline,7.0,3.0,4.255261899903417,8,1
0,6313.jpg,negative,regulation,5.0,3.0,7.188845399999991,8,1
1,2800.jpg,negative,regulation,1.0,8.0,7.445013000047766,8,1
2,2095.jpg,negative,regulation,2.0,8.0,5.25756579998415,8,1
3,3301.jpg,negative,regulation,2.0,7.0,7.647268299944699,8,1
4,3101.jpg,negative,regulation,1.0,6.0,7.1499779999721795,8,1
5,6350.jpg,negative,regulation,1.0,7.0,10.001079299952835,8,1
6,6360.jpg,negative,regulation,3.0,5.0,9.358326300047338,8,1
7,3530.jpg,negative,regulation,2.0,7.0,8.758459400036372,8,1
8,3230.jpg,negative,regulation,2.0,7.0,10.007036700029857,8,1
9,3195.jpg,negative,regulation,1.0,7.0,6.367283500032499,8,1
10,3500.jpg,negative,regulation,1.0,7.0,7.639109999989159,8,1
11,3225.jpg,negative,regulation,3.0,6.0,6.700150400050916,8,1
12,3180.jpg,negative,regulation,2.0,7.0,4.1348135999869555,8,1
13,3030.jpg,negative,regulation,1.0,7.0,3.307896999991499,8,1
14,3350.jpg,negative,regulation,2.0,6.0,6.006925900001079,8,1
15,2205.jpg,negative,regulation,3.0,6.0,6.8416368999751285,8,1
16,6212.jpg,negative,regulation,2.0,5.0,8.873643800034188,8,1
17,3103.jpg,negative,regulation,1.0,6.0,4.390494599938393,8,1
18,2703.jpg,negative,regulation,1.0,7.0,3.1402168000349775,8,1
19,3005.1.jpg,negative,regulation,1.0,7.0,3.875523900031112,8,1
