trial,image,category,phase,valence,arousal,rating_rt,participant_id,session
0,2800.jpg,negative,baseline,2.0,7.0,3.1670748999986245,26,2
1,2101.jpg,neutral,baseline,2.0,7.0,7.857392300000356,26,2
2,2050.jpg,positive,baseline,3.0,5.0,2.5472257000001264,26,2
3,7017.jpg,neutral,baseline,4.0,2.0,1.963257399998838,26,2
4,2154.jpg,positive,baseline,6.0,2.0,2.745944000000236,26,2
5,2749.jpg,neutral,baseline,2.0,6.0,2.4223234000000957,26,2
6,7003.jpg,neutral,baseline,5.0,2.0,2.7376469999999244,26,2
7,3350.jpg,negative,baseline,2.0,7.0,5.212035900000046,26,2
8,2377.jpg,neutral,baseline,3.0,2.0,1.490116400000261,26,2
9,2205.jpg,negative,baseline,5.0,2.0,8.434757800001535,26,2
10,6360.jpg,negative,baseline,2.0,7.0,2.2064450000016222,26,2
11,3225.jpg,negative,baseline,2.0,8.0,2.0671759999986534,26,2
12,5510.jpg,neutral,baseline,5.0,2.0,1.5738958999991155,26,2
13,2209.jpg,positive,baseline,5.0,4.0,2.087679300000673,26,2
14,6313.jpg,negative,baseline,4.0,6.0,4.159891600000265,26,2
15,2091.jpg,positive,baseline,7.0,2.0,2.1477057999982208,26,2
16,5920.jpg,neutral,baseline,5.0,3.0,1.8195415000009234,26,2
17,3500.jpg,negative,baseline,5.0,4.0,1.8054635000007693,26,2
18,7009.jpg,neutral,baseline,5.0,1.0,1.4765092999987246,26,2
19,2570.jpg,neutral,baseline,5.0,2.0,1.9180356999986543,26,2
20,3180.jpg,negative,baseline,3.0,4.0,3.8877348999994865,26,2
21,2530.jpg,positive,baseline,4.0,5.0,3.3795069999996485,26,2
22,1460.jpg,positive,baseline,7.0,2.0,3.6533152000010887,26,2
23,6212.jpg,negative,baseline,2.0,7.0,2.44872740000028,26,2
24,3530.jpg,negative,baseline,2.0,9.0,1.9271386000000348,26,2
25,2340.jpg,positive,baseline,7.0,2.0,2.532614599998851,26,2
26,2058.jpg,positive,baseline,5.0,2.0,4.531834600000366,26,2
27,3301.jpg,negative,baseline,4.0,2.0,3.3035600000002887,26,2
28,7004.jpg,neutral,baseline,4.0,2.0,6.549017299999832,26,2
29,1710.jpg,positive,baseline,8.0,2.0,2.524538500001654,26,2
30,1440.jpg,positive,baseline,8.0,2.0,3.0415653999989445,26,2
31,2095.jpg,negative,baseline,2.0,7.0,1.7458229000003485,26,2
32,3101.jpg,negative,baseline,2.0,9.0,1.7719008000003669,26,2
33,3195.jpg,negative,baseline,1.0,9.0,2.893261299999722,26,2
34,2540.jpg,positive,baseline,8.0,1.0,4.263224599999376,26,2
35,7012.jpg,neutral,baseline,3.0,3.0,2.806336100000408,26,2
36,2200.jpg,neutral,baseline,5.0,2.0,4.414665000000241,26,2
37,1920.jpg,positive,baseline,7.0,2.0,2.929436099999293,26,2
38,1441.jpg,positive,baseline,8.0,1.0,4.148234800000864,26,2
39,7006.jpg,neutral,baseline,2.0,1.0,6.477267899999788,26,2
40,2703.jpg,negative,baseline,2.0,7.0,3.7615920000007463,26,2
41,5532.jpg,neutral,baseline,2.0,4.0,1.9638572000003478,26,2
42,7018.jpg,neutral,baseline,5.0,1.0,4.103814800000691,26,2
43,7000.jpg,neutral,baseline,4.0,1.0,2.417099700000108,26,2
44,3005.1.jpg,negative,baseline,3.0,9.0,2.7891596999998,26,2
45,2360.jpg,positive,baseline,6.0,2.0,6.46894760000032,26,2
46,3230.jpg,negative,baseline,2.0,3.0,3.809108199999173,26,2
47,2311.jpg,positive,baseline,7.0,2.0,2.5812841999995726,26,2
48,1610.jpg,positive,baseline,7.0,1.0,2.0902831999992486,26,2
49,2840.jpg,neutral,baseline,4.0,2.0,3.702992800001084,26,2
50,2347.jpg,positive,baseline,7.0,2.0,2.0112143000005744,26,2
51,1750.jpg,positive,baseline,2.0,1.0,3.5359594999990804,26,2
52,2393.jpg,neutral,baseline,2.0,1.0,1.5059947999998258,26,2
53,2332.jpg,positive,baseline,6.0,1.0,1.960161099999823,26,2
54,7002.jpg,neutral,baseline,2.0,1.0,5.391880900000615,26,2
55,2411.jpg,neutral,baseline,1.0,3.0,2.431095500000083,26,2
56,6350.jpg,negative,baseline,3.0,7.0,1.506979699999647,26,2
57,3103.jpg,negative,baseline,1.0,8.0,2.1558471000007557,26,2
58,3030.jpg,negative,baseline,1.0,9.0,2.432604800000263,26,2
59,2150.jpg,positive,baseline,2.0,6.0,2.4585490000008576,26,2
0,3530.jpg,negative,regulation,3.0,7.0,3.807361499999388,26,2
1,3101.jpg,negative,regulation,2.0,8.0,5.781192700000247,26,2
2,3195.jpg,negative,regulation,1.0,9.0,3.109635299999354,26,2
3,6360.jpg,negative,regulation,4.0,6.0,2.19352550000076,26,2
4,3225.jpg,negative,regulation,2.0,8.0,1.8859040999996068,26,2
5,3301.jpg,negative,regulation,3.0,5.0,1.5810153999991599,26,2
6,6313.jpg,negative,regulation,5.0,3.0,3.2577483000004577,26,2
7,3103.jpg,negative,regulation,1.0,8.0,3.567408400000204,26,2
8,2800.jpg,negative,regulation,1.0,6.0,4.4233297999999195,26,2
9,3030.jpg,negative,regulation,1.0,9.0,2.7448996000002808,26,2
10,6350.jpg,negative,regulation,4.0,3.0,2.935786399999415,26,2
11,2703.jpg,negative,regulation,2.0,6.0,1.9473011999998562,26,2
12,3500.jpg,negative,regulation,7.0,3.0,4.160458700000163,26,2
13,2095.jpg,negative,regulation,4.0,3.0,4.301212500000474,26,2
14,3350.jpg,negative,regulation,2.0,3.0,2.2875874000001204,26,2
15,3230.jpg,negative,regulation,2.0,1.0,1.8937402999999904,26,2
16,3005.1.jpg,negative,regulation,1.0,3.0,3.63627809999889,26,2
17,6212.jpg,negative,regulation,4.0,1.0,2.378619000000981,26,2
18,2205.jpg,negative,regulation,5.0,3.0,4.017523300000903,26,2
19,3180.jpg,negative,regulation,6.0,1.0,2.1259044999987964,26,2
