trial,image,category,phase,valence,arousal,rating_rt,participant_id,session
0,9921.jpg,negative,baseline,4.0,6.0,2.408710499992594,33,2
1,5210.jpg,positive,baseline,9.0,1.0,2.8626367000106256,33,2
2,9571.jpg,negative,baseline,2.0,7.0,2.5161615000106394,33,2
3,5833.jpg,positive,baseline,7.0,2.0,3.8251239999954123,33,2
4,7077.jpg,neutral,baseline,4.0,5.0,3.118711999995867,33,2
5,7175.jpg,neutral,baseline,7.0,1.0,1.7216766999918036,33,2
6,7020.jpg,neutral,baseline,7.0,3.0,1.8100215999875218,33,2
7,5700.jpg,positive,baseline,8.0,2.0,2.466463000018848,33,2
8,8496.jpg,positive,baseline,5.0,5.0,1.967378600005759,33,2
9,8370.jpg,positive,baseline,5.0,5.0,1.3167863999842666,33,2
10,9254.jpg,negative,baseline,3.0,7.0,2.318794599996181,33,2
11,7035.jpg,neutral,baseline,5.0,3.0,1.1049927999847569,33,2
12,5760.jpg,positive,baseline,8.0,3.0,2.190850799990585,33,2
13,8420.jpg,positive,baseline,5.0,5.0,1.4318002999934833,33,2
14,9910.jpg,negative,baseline,3.0,7.0,1.4427171999996062,33,2
15,9940.jpg,negative,baseline,3.0,7.0,2.1234418000094593,33,2
16,6540.jpg,negative,baseline,3.0,7.0,1.6990652999957092,33,2
17,9140.jpg,negative,baseline,2.0,7.0,2.108355300006224,33,2
18,7950.jpg,neutral,baseline,5.0,5.0,1.0588706000125967,33,2
19,7025.jpg,neutral,baseline,5.0,3.0,2.3780833999917377,33,2
20,7161.jpg,neutral,baseline,5.0,5.0,1.2010813000088092,33,2
21,8501.jpg,positive,baseline,7.0,6.0,1.6285929000005126,33,2
22,5830.jpg,positive,baseline,7.0,2.0,2.401063299999805,33,2
23,9210.jpg,neutral,baseline,4.0,5.0,2.471982199989725,33,2
24,7270.jpg,positive,baseline,7.0,3.0,1.6281118000042625,33,2
25,7186.jpg,neutral,baseline,8.0,2.0,1.421559200010961,33,2
26,7484.jpg,neutral,baseline,7.0,2.0,1.559764300007373,33,2
27,7287.jpg,neutral,baseline,5.0,5.0,1.1535490000096615,33,2
28,9421.jpg,negative,baseline,4.0,6.0,1.5202491999953054,33,2
29,8170.jpg,positive,baseline,5.0,4.0,1.7426134999841452,33,2
30,7179.jpg,neutral,baseline,6.0,4.0,1.4636985000106506,33,2
31,5825.jpg,positive,baseline,9.0,1.0,1.6507093999825884,33,2
32,7211.jpg,neutral,baseline,7.0,3.0,2.6913889999850653,33,2
33,2550.jpg,positive,baseline,6.0,4.0,1.6614169999957085,33,2
34,9040.jpg,negative,baseline,2.0,7.0,2.252409100008663,33,2
35,7502.jpg,positive,baseline,6.0,3.0,1.617614600021625,33,2
36,9220.jpg,negative,baseline,5.0,4.0,1.4857273999950849,33,2
37,6570.jpg,negative,baseline,4.0,6.0,1.8483550999953877,33,2
38,9560.jpg,negative,baseline,5.0,5.0,2.085835300007602,33,2
39,5600.jpg,positive,baseline,7.0,3.0,2.668717199994717,33,2
40,5910.jpg,positive,baseline,7.0,3.0,2.718501199997263,33,2
41,9413.jpg,negative,baseline,2.0,7.0,2.4295442000147887,33,2
42,9901.jpg,negative,baseline,3.0,7.0,3.6776378999929875,33,2
43,7037.jpg,neutral,baseline,6.0,3.0,3.640146299992921,33,2
44,7247.jpg,neutral,baseline,5.0,4.0,3.537368699995568,33,2
45,5780.jpg,positive,baseline,9.0,1.0,2.8578960000013467,33,2
46,6520.jpg,negative,baseline,3.0,7.0,2.296042700007092,33,2
47,8200.jpg,positive,baseline,6.0,4.0,2.0348936999798752,33,2
48,8010.jpg,neutral,baseline,4.0,6.0,1.3376449999923352,33,2
49,9800.jpg,negative,baseline,4.0,5.0,1.9349431000009645,33,2
50,9414.jpg,negative,baseline,4.0,6.0,1.7067553999950178,33,2
51,9322.jpg,negative,baseline,3.0,7.0,1.4756909999996424,33,2
52,7050.jpg,neutral,baseline,5.0,5.0,1.0794146000116598,33,2
53,8190.jpg,positive,baseline,7.0,4.0,1.342338699992979,33,2
54,5831.jpg,positive,baseline,6.0,4.0,2.1696740000043064,33,2
55,7150.jpg,neutral,baseline,5.0,5.0,1.2575897999922745,33,2
56,7640.jpg,neutral,baseline,4.0,6.0,1.6403335000213701,33,2
57,6560.jpg,negative,baseline,3.0,7.0,1.8184985999832861,33,2
58,7041.jpg,neutral,baseline,5.0,4.0,1.312009900022531,33,2
59,6563.jpg,negative,baseline,4.0,5.0,2.7675981000065804,33,2
0,6540.jpg,negative,regulation,4.0,6.0,3.43946330001927,33,2
1,9140.jpg,negative,regulation,4.0,7.0,2.7926464999909513,33,2
2,9901.jpg,negative,regulation,3.0,5.0,2.4863231999916025,33,2
3,6563.jpg,negative,regulation,5.0,4.0,1.3691920000128448,33,2
4,9910.jpg,negative,regulation,4.0,4.0,2.6662208999914583,33,2
5,9413.jpg,negative,regulation,3.0,7.0,1.8589864000095986,33,2
6,9322.jpg,negative,regulation,2.0,6.0,1.896452999993926,33,2
7,9040.jpg,negative,regulation,2.0,8.0,1.8967547999927774,33,2
8,9921.jpg,negative,regulation,2.0,7.0,2.2263456000073347,33,2
9,9940.jpg,negative,regulation,5.0,5.0,2.38655120000476,33,2
10,9571.jpg,negative,regulation,2.0,8.0,2.2716622999869287,33,2
11,9421.jpg,negative,regulation,5.0,5.0,3.4859716999926604,33,2
12,9254.jpg,negative,regulation,3.0,8.0,2.069317099987529,33,2
13,6570.jpg,negative,regulation,5.0,4.0,1.5161345999804325,33,2
14,9414.jpg,negative,regulation,4.0,6.0,2.3021689000015613,33,2
15,9800.jpg,negative,regulation,5.0,5.0,3.5600737999775447,33,2
16,6560.jpg,negative,regulation,3.0,7.0,1.5745737999968696,33,2
17,9220.jpg,negative,regulation,5.0,3.0,3.4451454999798443,33,2
18,9560.jpg,negative,regulation,5.0,5.0,2.5949537999986205,33,2
19,6520.jpg,negative,regulation,4.0,5.0,1.2296447000117041,33,2
