trial,stimulus,target,response,rt,correct,n_back,block,participant_id,session,task
0,J,False,False,,True,0,0,105,1,N-back
1,B,False,False,,True,0,0,105,1,N-back
2,I,False,False,,True,0,0,105,1,N-back
3,V,False,False,,True,0,0,105,1,N-back
4,L,False,False,,True,0,0,105,1,N-back
5,O,False,False,,True,0,0,105,1,N-back
6,X,True,True,0.41433980000010706,True,0,0,105,1,N-back
7,Y,False,False,,True,0,0,105,1,N-back
8,N,False,False,,True,0,0,105,1,N-back
9,C,False,False,,True,0,0,105,1,N-back
10,J,False,False,,True,0,0,105,1,N-back
11,B,False,False,,True,0,0,105,1,N-back
12,X,True,True,0.3705645000000004,True,0,0,105,1,N-back
13,V,False,False,,True,0,0,105,1,N-back
14,W,False,False,,True,0,0,105,1,N-back
15,K,False,False,,True,0,0,105,1,N-back
16,T,False,False,,True,0,0,105,1,N-back
17,E,False,False,,True,0,0,105,1,N-back
18,V,False,False,,True,0,0,105,1,N-back
19,A,False,False,,True,0,0,105,1,N-back
20,X,True,True,0.3634093999999095,True,0,0,105,1,N-back
21,X,True,True,0.4750526999998783,True,0,0,105,1,N-back
22,C,False,False,,True,0,0,105,1,N-back
23,Z,False,False,,True,0,0,105,1,N-back
24,F,False,False,,True,0,0,105,1,N-back
25,V,False,False,,True,0,0,105,1,N-back
26,R,False,False,,True,0,0,105,1,N-back
27,X,True,True,0.41264730000011696,True,0,0,105,1,N-back
28,K,False,False,,True,0,0,105,1,N-back
29,I,False,False,,True,0,0,105,1,N-back
0,X,True,True,0.43073340000000826,True,0,1,105,1,N-back
1,W,False,False,,True,0,1,105,1,N-back
2,X,True,True,0.37311959999988176,True,0,1,105,1,N-back
3,U,False,False,,True,0,1,105,1,N-back
4,X,True,True,0.42941080000014153,True,0,1,105,1,N-back
5,S,False,False,,True,0,1,105,1,N-back
6,C,False,False,,True,0,1,105,1,N-back
7,X,True,True,0.4846013999999741,True,0,1,105,1,N-back
8,U,False,False,,True,0,1,105,1,N-back
9,X,True,True,0.4164901000001464,True,0,1,105,1,N-back
10,Y,False,False,,True,0,1,105,1,N-back
11,X,True,True,0.4145098000001326,True,0,1,105,1,N-back
12,D,False,False,,True,0,1,105,1,N-back
13,J,False,False,,True,0,1,105,1,N-back
14,W,False,False,,True,0,1,105,1,N-back
15,X,True,True,0.3684815999999955,True,0,1,105,1,N-back
16,U,False,False,,True,0,1,105,1,N-back
17,Y,False,False,,True,0,1,105,1,N-back
18,Y,False,False,,True,0,1,105,1,N-back
19,Q,False,False,,True,0,1,105,1,N-back
20,X,True,True,0.40460379999990437,True,0,1,105,1,N-back
21,W,False,False,,True,0,1,105,1,N-back
22,Y,False,False,,True,0,1,105,1,N-back
23,X,True,True,0.38044910000007803,True,0,1,105,1,N-back
24,F,False,False,,True,0,1,105,1,N-back
25,W,False,False,,True,0,1,105,1,N-back
26,I,False,False,,True,0,1,105,1,N-back
27,X,True,True,0.3909332999999151,True,0,1,105,1,N-back
28,K,False,False,,True,0,1,105,1,N-back
29,F,False,False,,True,0,1,105,1,N-back
0,V,False,False,,True,1,0,105,1,N-back
1,G,False,False,,True,1,0,105,1,N-back
2,F,False,False,,True,1,0,105,1,N-back
3,P,False,False,,True,1,0,105,1,N-back
4,P,True,False,,False,1,0,105,1,N-back
5,G,False,False,,True,1,0,105,1,N-back
6,T,False,False,,True,1,0,105,1,N-back
7,V,False,False,,True,1,0,105,1,N-back
8,O,False,False,,True,1,0,105,1,N-back
9,H,False,False,,True,1,0,105,1,N-back
10,C,False,False,,True,1,0,105,1,N-back
11,R,False,False,,True,1,0,105,1,N-back
12,H,False,False,,True,1,0,105,1,N-back
13,L,False,False,,True,1,0,105,1,N-back
14,B,False,False,,True,1,0,105,1,N-back
15,P,False,False,,True,1,0,105,1,N-back
16,P,True,True,0.43153480000000854,True,1,0,105,1,N-back
17,P,True,False,,False,1,0,105,1,N-back
18,Z,False,False,,True,1,0,105,1,N-back
19,X,False,False,,True,1,0,105,1,N-back
20,J,False,False,,True,1,0,105,1,N-back
21,F,False,False,,True,1,0,105,1,N-back
22,S,False,False,,True,1,0,105,1,N-back
23,K,False,False,,True,1,0,105,1,N-back
24,M,False,False,,True,1,0,105,1,N-back
25,A,False,False,,True,1,0,105,1,N-back
26,C,False,False,,True,1,0,105,1,N-back
27,G,False,False,,True,1,0,105,1,N-back
28,G,True,True,0.5001815000000533,True,1,0,105,1,N-back
29,Y,False,False,,True,1,0,105,1,N-back
0,D,False,False,,True,1,1,105,1,N-back
1,S,False,False,,True,1,1,105,1,N-back
2,I,False,False,,True,1,1,105,1,N-back
3,K,False,False,,True,1,1,105,1,N-back
4,K,True,True,0.3595940000000155,True,1,1,105,1,N-back
5,P,False,False,,True,1,1,105,1,N-back
6,P,True,True,0.36872509999989234,True,1,1,105,1,N-back
7,C,False,False,,True,1,1,105,1,N-back
8,C,True,True,0.34453159999998206,True,1,1,105,1,N-back
9,C,True,False,,False,1,1,105,1,N-back
10,A,False,False,,True,1,1,105,1,N-back
11,Q,False,False,,True,1,1,105,1,N-back
12,S,False,False,,True,1,1,105,1,N-back
13,D,False,False,,True,1,1,105,1,N-back
14,O,False,False,,True,1,1,105,1,N-back
15,O,True,True,0.3135565999998562,True,1,1,105,1,N-back
16,O,True,True,0.4585309999999936,True,1,1,105,1,N-back
17,O,True,True,0.3424631000000318,True,1,1,105,1,N-back
18,L,False,False,,True,1,1,105,1,N-back
19,Y,False,False,,True,1,1,105,1,N-back
20,C,False,False,,True,1,1,105,1,N-back
21,Z,False,False,,True,1,1,105,1,N-back
22,N,False,False,,True,1,1,105,1,N-back
23,G,False,False,,True,1,1,105,1,N-back
24,U,False,False,,True,1,1,105,1,N-back
25,U,True,True,0.384500399999979,True,1,1,105,1,N-back
26,G,False,False,,True,1,1,105,1,N-back
27,Z,False,False,,True,1,1,105,1,N-back
28,G,False,False,,True,1,1,105,1,N-back
29,X,False,False,,True,1,1,105,1,N-back
0,T,False,False,,True,2,0,105,1,N-back
1,O,False,False,,True,2,0,105,1,N-back
2,I,False,False,,True,2,0,105,1,N-back
3,R,False,False,,True,2,0,105,1,N-back
4,I,True,True,0.37506999999982327,True,2,0,105,1,N-back
5,G,False,False,,True,2,0,105,1,N-back
6,B,False,False,,True,2,0,105,1,N-back
7,N,False,False,,True,2,0,105,1,N-back
8,B,True,False,,False,2,0,105,1,N-back
9,N,True,False,,False,2,0,105,1,N-back
10,D,False,False,,True,2,0,105,1,N-back
11,T,False,False,,True,2,0,105,1,N-back
12,A,False,False,,True,2,0,105,1,N-back
13,W,False,False,,True,2,0,105,1,N-back
14,O,False,False,,True,2,0,105,1,N-back
15,V,False,False,,True,2,0,105,1,N-back
16,B,False,False,,True,2,0,105,1,N-back
17,D,False,False,,True,2,0,105,1,N-back
18,Q,False,False,,True,2,0,105,1,N-back
19,B,False,True,0.3206566000001203,False,2,0,105,1,N-back
20,N,False,False,,True,2,0,105,1,N-back
21,Q,False,False,,True,2,0,105,1,N-back
22,A,False,False,,True,2,0,105,1,N-back
23,O,False,False,,True,2,0,105,1,N-back
24,T,False,False,,True,2,0,105,1,N-back
25,O,True,False,,False,2,0,105,1,N-back
26,L,False,False,,True,2,0,105,1,N-back
27,O,True,True,0.3789650999999594,True,2,0,105,1,N-back
28,M,False,False,,True,2,0,105,1,N-back
29,W,False,False,,True,2,0,105,1,N-back
0,K,False,False,,True,2,1,105,1,N-back
1,T,False,False,,True,2,1,105,1,N-back
2,K,True,False,,False,2,1,105,1,N-back
3,X,False,False,,True,2,1,105,1,N-back
4,Z,False,False,,True,2,1,105,1,N-back
5,Q,False,False,,True,2,1,105,1,N-back
6,U,False,False,,True,2,1,105,1,N-back
7,Q,True,False,,False,2,1,105,1,N-back
8,E,False,False,,True,2,1,105,1,N-back
9,G,False,False,,True,2,1,105,1,N-back
10,E,True,False,,False,2,1,105,1,N-back
11,Y,False,False,,True,2,1,105,1,N-back
12,Q,False,False,,True,2,1,105,1,N-back
13,C,False,False,,True,2,1,105,1,N-back
14,F,False,False,,True,2,1,105,1,N-back
15,C,True,True,0.4886681000000408,True,2,1,105,1,N-back
16,S,False,False,,True,2,1,105,1,N-back
17,A,False,False,,True,2,1,105,1,N-back
18,T,False,False,,True,2,1,105,1,N-back
19,G,False,False,,True,2,1,105,1,N-back
20,J,False,False,,True,2,1,105,1,N-back
21,G,True,True,0.41767410000011296,True,2,1,105,1,N-back
22,J,True,False,,False,2,1,105,1,N-back
23,O,False,False,,True,2,1,105,1,N-back
24,Z,False,False,,True,2,1,105,1,N-back
25,O,True,False,,False,2,1,105,1,N-back
26,F,False,False,,True,2,1,105,1,N-back
27,V,False,False,,True,2,1,105,1,N-back
28,U,False,False,,True,2,1,105,1,N-back
29,V,True,True,0.4066810000001624,True,2,1,105,1,N-back
