trial,stimulus,target,response,rt,correct,n_back,block,participant_id,session,task
0,X,True,True,0.41649480001069605,True,0,0,31,2,N-back
1,O,False,False,,True,0,0,31,2,N-back
2,Q,False,False,,True,0,0,31,2,N-back
3,V,False,False,,True,0,0,31,2,N-back
4,H,False,False,,True,0,0,31,2,N-back
5,X,True,True,0.39239870000164956,True,0,0,31,2,N-back
6,C,False,False,,True,0,0,31,2,N-back
7,C,False,False,,True,0,0,31,2,N-back
8,X,True,True,0.4140837999875657,True,0,0,31,2,N-back
9,J,False,False,,True,0,0,31,2,N-back
10,D,False,False,,True,0,0,31,2,N-back
11,U,False,False,,True,0,0,31,2,N-back
12,N,False,False,,True,0,0,31,2,N-back
13,X,True,True,0.31490169998141937,True,0,0,31,2,N-back
14,C,False,False,,True,0,0,31,2,N-back
15,J,False,False,,True,0,0,31,2,N-back
16,I,False,False,,True,0,0,31,2,N-back
17,J,False,False,,True,0,0,31,2,N-back
18,C,False,False,,True,0,0,31,2,N-back
19,A,False,False,,True,0,0,31,2,N-back
20,C,False,False,,True,0,0,31,2,N-back
21,N,False,False,,True,0,0,31,2,N-back
22,W,False,False,,True,0,0,31,2,N-back
23,X,True,True,0.3778048999956809,True,0,0,31,2,N-back
24,J,False,False,,True,0,0,31,2,N-back
25,D,False,False,,True,0,0,31,2,N-back
26,R,False,False,,True,0,0,31,2,N-back
27,W,False,False,,True,0,0,31,2,N-back
28,L,False,False,,True,0,0,31,2,N-back
29,Z,False,False,,True,0,0,31,2,N-back
0,Z,False,False,,True,0,1,31,2,N-back
1,G,False,False,,True,0,1,31,2,N-back
2,J,False,False,,True,0,1,31,2,N-back
3,S,False,False,,True,0,1,31,2,N-back
4,X,True,True,0.36986000000615604,True,0,1,31,2,N-back
5,I,False,False,,True,0,1,31,2,N-back
6,I,False,False,,True,0,1,31,2,N-back
7,S,False,False,,True,0,1,31,2,N-back
8,X,True,True,0.35899559999234043,True,0,1,31,2,N-back
9,X,True,False,,False,0,1,31,2,N-back
10,B,False,False,,True,0,1,31,2,N-back
11,X,True,True,0.37236319997464307,True,0,1,31,2,N-back
12,C,False,False,,True,0,1,31,2,N-back
13,X,True,True,0.32810119999339804,True,0,1,31,2,N-back
14,Z,False,False,,True,0,1,31,2,N-back
15,O,False,False,,True,0,1,31,2,N-back
16,D,False,False,,True,0,1,31,2,N-back
17,U,False,False,,True,0,1,31,2,N-back
18,X,True,True,0.36547580000478774,True,0,1,31,2,N-back
19,G,False,False,,True,0,1,31,2,N-back
20,B,False,False,,True,0,1,31,2,N-back
21,X,True,True,0.39349260000744835,True,0,1,31,2,N-back
22,Q,False,False,,True,0,1,31,2,N-back
23,X,True,True,0.35894599999301136,True,0,1,31,2,N-back
24,L,False,False,,True,0,1,31,2,N-back
25,V,False,False,,True,0,1,31,2,N-back
26,X,True,True,0.36768860000302084,True,0,1,31,2,N-back
27,L,False,False,,True,0,1,31,2,N-back
28,X,True,True,0.4424246000126004,True,0,1,31,2,N-back
29,Z,False,False,,True,0,1,31,2,N-back
0,E,False,False,,True,1,0,31,2,N-back
1,I,False,False,,True,1,0,31,2,N-back
2,X,False,False,,True,1,0,31,2,N-back
3,X,True,True,0.3619937000039499,True,1,0,31,2,N-back
4,T,False,False,,True,1,0,31,2,N-back
5,I,False,False,,True,1,0,31,2,N-back
6,I,True,True,0.44904209999367595,True,1,0,31,2,N-back
7,I,True,False,,False,1,0,31,2,N-back
8,I,True,True,0.37597660001483746,True,1,0,31,2,N-back
9,X,False,False,,True,1,0,31,2,N-back
10,E,False,False,,True,1,0,31,2,N-back
11,T,False,False,,True,1,0,31,2,N-back
12,Z,False,False,,True,1,0,31,2,N-back
13,Z,True,True,0.3211902999901213,True,1,0,31,2,N-back
14,F,False,False,,True,1,0,31,2,N-back
15,T,False,False,,True,1,0,31,2,N-back
16,I,False,False,,True,1,0,31,2,N-back
17,P,False,False,,True,1,0,31,2,N-back
18,X,False,False,,True,1,0,31,2,N-back
19,E,False,False,,True,1,0,31,2,N-back
20,E,True,True,0.318371000001207,True,1,0,31,2,N-back
21,V,False,False,,True,1,0,31,2,N-back
22,M,False,False,,True,1,0,31,2,N-back
23,A,False,False,,True,1,0,31,2,N-back
24,I,False,False,,True,1,0,31,2,N-back
25,N,False,False,,True,1,0,31,2,N-back
26,L,False,False,,True,1,0,31,2,N-back
27,I,False,False,,True,1,0,31,2,N-back
28,Q,False,False,,True,1,0,31,2,N-back
29,I,False,True,0.41268189999391325,False,1,0,31,2,N-back
0,H,False,False,,True,1,1,31,2,N-back
1,S,False,False,,True,1,1,31,2,N-back
2,O,False,False,,True,1,1,31,2,N-back
3,O,True,False,,False,1,1,31,2,N-back
4,G,False,False,,True,1,1,31,2,N-back
5,G,True,True,0.46323679998749867,True,1,1,31,2,N-back
6,F,False,False,,True,1,1,31,2,N-back
7,X,False,False,,True,1,1,31,2,N-back
8,M,False,False,,True,1,1,31,2,N-back
9,B,False,False,,True,1,1,31,2,N-back
10,S,False,False,,True,1,1,31,2,N-back
11,Z,False,False,,True,1,1,31,2,N-back
12,Z,True,False,,False,1,1,31,2,N-back
13,Z,True,True,0.4413971000176389,True,1,1,31,2,N-back
14,R,False,False,,True,1,1,31,2,N-back
15,K,False,False,,True,1,1,31,2,N-back
16,N,False,False,,True,1,1,31,2,N-back
17,N,True,True,0.3657175999833271,True,1,1,31,2,N-back
18,H,False,False,,True,1,1,31,2,N-back
19,D,False,False,,True,1,1,31,2,N-back
20,M,False,False,,True,1,1,31,2,N-back
21,O,False,False,,True,1,1,31,2,N-back
22,I,False,False,,True,1,1,31,2,N-back
23,N,False,False,,True,1,1,31,2,N-back
24,M,False,False,,True,1,1,31,2,N-back
25,Y,False,False,,True,1,1,31,2,N-back
26,Q,False,False,,True,1,1,31,2,N-back
27,A,False,False,,True,1,1,31,2,N-back
28,Z,False,False,,True,1,1,31,2,N-back
29,T,False,False,,True,1,1,31,2,N-back
0,Y,False,False,,True,2,0,31,2,N-back
1,X,False,False,,True,2,0,31,2,N-back
2,E,False,False,,True,2,0,31,2,N-back
3,K,False,False,,True,2,0,31,2,N-back
4,E,True,True,0.4538853999983985,True,2,0,31,2,N-back
5,K,True,False,,False,2,0,31,2,N-back
6,Z,False,False,,True,2,0,31,2,N-back
7,D,False,False,,True,2,0,31,2,N-back
8,I,False,False,,True,2,0,31,2,N-back
9,P,False,False,,True,2,0,31,2,N-back
10,I,True,True,0.37366469998960383,True,2,0,31,2,N-back
11,V,False,False,,True,2,0,31,2,N-back
12,I,True,False,,False,2,0,31,2,N-back
13,H,False,False,,True,2,0,31,2,N-back
14,M,False,False,,True,2,0,31,2,N-back
15,T,False,False,,True,2,0,31,2,N-back
16,Y,False,False,,True,2,0,31,2,N-back
17,K,False,False,,True,2,0,31,2,N-back
18,Y,True,False,,False,2,0,31,2,N-back
19,J,False,False,,True,2,0,31,2,N-back
20,M,False,False,,True,2,0,31,2,N-back
21,O,False,False,,True,2,0,31,2,N-back
22,G,False,False,,True,2,0,31,2,N-back
23,K,False,False,,True,2,0,31,2,N-back
24,L,False,False,,True,2,0,31,2,N-back
25,W,False,False,,True,2,0,31,2,N-back
26,O,False,False,,True,2,0,31,2,N-back
27,W,True,False,,False,2,0,31,2,N-back
28,O,True,False,,False,2,0,31,2,N-back
29,W,True,False,,False,2,0,31,2,N-back
0,R,False,False,,True,2,1,31,2,N-back
1,Y,False,False,,True,2,1,31,2,N-back
2,E,False,False,,True,2,1,31,2,N-back
3,Y,True,False,,False,2,1,31,2,N-back
4,O,False,False,,True,2,1,31,2,N-back
5,N,False,False,,True,2,1,31,2,N-back
6,R,False,False,,True,2,1,31,2,N-back
7,L,False,False,,True,2,1,31,2,N-back
8,R,True,False,,False,2,1,31,2,N-back
9,K,False,False,,True,2,1,31,2,N-back
10,W,False,False,,True,2,1,31,2,N-back
11,K,True,False,,False,2,1,31,2,N-back
12,Z,False,False,,True,2,1,31,2,N-back
13,J,False,False,,True,2,1,31,2,N-back
14,A,False,False,,True,2,1,31,2,N-back
15,J,True,True,0.39301239998894744,True,2,1,31,2,N-back
16,A,True,False,,False,2,1,31,2,N-back
17,B,False,False,,True,2,1,31,2,N-back
18,O,False,False,,True,2,1,31,2,N-back
19,H,False,False,,True,2,1,31,2,N-back
20,U,False,False,,True,2,1,31,2,N-back
21,H,True,False,,False,2,1,31,2,N-back
22,O,False,False,,True,2,1,31,2,N-back
23,H,True,True,0.4701183999713976,True,2,1,31,2,N-back
24,C,False,False,,True,2,1,31,2,N-back
25,Y,False,False,,True,2,1,31,2,N-back
26,C,True,False,,False,2,1,31,2,N-back
27,I,False,False,,True,2,1,31,2,N-back
28,T,False,False,,True,2,1,31,2,N-back
29,U,False,False,,True,2,1,31,2,N-back
