trial,stimulus,target,response,rt,correct,n_back,block,participant_id,session,task
0,H,False,False,,True,0,0,20,2,N-back
1,M,False,False,,True,0,0,20,2,N-back
2,W,False,False,,True,0,0,20,2,N-back
3,X,True,True,0.44511049998982344,True,0,0,20,2,N-back
4,L,False,False,,True,0,0,20,2,N-back
5,D,False,False,,True,0,0,20,2,N-back
6,P,False,False,,True,0,0,20,2,N-back
7,S,False,False,,True,0,0,20,2,N-back
8,Y,False,False,,True,0,0,20,2,N-back
9,X,True,True,0.3884145000047283,True,0,0,20,2,N-back
10,I,False,False,,True,0,0,20,2,N-back
11,P,False,False,,True,0,0,20,2,N-back
12,V,False,False,,True,0,0,20,2,N-back
13,X,True,True,0.4312956999929156,True,0,0,20,2,N-back
14,Q,False,False,,True,0,0,20,2,N-back
15,C,False,False,,True,0,0,20,2,N-back
16,W,False,False,,True,0,0,20,2,N-back
17,X,True,True,0.4189876999880653,True,0,0,20,2,N-back
18,U,False,False,,True,0,0,20,2,N-back
19,X,True,True,0.40459459999692626,True,0,0,20,2,N-back
20,E,False,False,,True,0,0,20,2,N-back
21,X,True,True,0.4007972000108566,True,0,0,20,2,N-back
22,I,False,False,,True,0,0,20,2,N-back
23,D,False,False,,True,0,0,20,2,N-back
24,U,False,False,,True,0,0,20,2,N-back
25,X,True,True,0.39159539999673143,True,0,0,20,2,N-back
26,A,False,False,,True,0,0,20,2,N-back
27,X,True,True,0.4796658999985084,True,0,0,20,2,N-back
28,A,False,False,,True,0,0,20,2,N-back
29,W,False,False,,True,0,0,20,2,N-back
0,C,False,False,,True,0,1,20,2,N-back
1,X,True,True,0.36430629999085795,True,0,1,20,2,N-back
2,X,True,True,0.3995933999976842,True,0,1,20,2,N-back
3,O,False,False,,True,0,1,20,2,N-back
4,X,True,True,0.44333939999341965,True,0,1,20,2,N-back
5,R,False,False,,True,0,1,20,2,N-back
6,Y,False,False,,True,0,1,20,2,N-back
7,E,False,False,,True,0,1,20,2,N-back
8,B,False,False,,True,0,1,20,2,N-back
9,D,False,False,,True,0,1,20,2,N-back
10,X,True,True,0.3595590000040829,True,0,1,20,2,N-back
11,S,False,False,,True,0,1,20,2,N-back
12,F,False,False,,True,0,1,20,2,N-back
13,C,False,False,,True,0,1,20,2,N-back
14,W,False,False,,True,0,1,20,2,N-back
15,G,False,False,,True,0,1,20,2,N-back
16,R,False,False,,True,0,1,20,2,N-back
17,F,False,False,,True,0,1,20,2,N-back
18,T,False,False,,True,0,1,20,2,N-back
19,X,True,True,0.3834091000026092,True,0,1,20,2,N-back
20,Q,False,False,,True,0,1,20,2,N-back
21,Q,False,False,,True,0,1,20,2,N-back
22,B,False,False,,True,0,1,20,2,N-back
23,U,False,False,,True,0,1,20,2,N-back
24,R,False,False,,True,0,1,20,2,N-back
25,X,True,True,0.39724849999765866,True,0,1,20,2,N-back
26,Z,False,False,,True,0,1,20,2,N-back
27,L,False,False,,True,0,1,20,2,N-back
28,X,True,True,0.3846357000002172,True,0,1,20,2,N-back
29,M,False,False,,True,0,1,20,2,N-back
0,R,False,False,,True,1,0,20,2,N-back
1,H,False,False,,True,1,0,20,2,N-back
2,H,True,True,0.3789287000108743,True,1,0,20,2,N-back
3,X,False,False,,True,1,0,20,2,N-back
4,W,False,False,,True,1,0,20,2,N-back
5,T,False,False,,True,1,0,20,2,N-back
6,X,False,False,,True,1,0,20,2,N-back
7,F,False,False,,True,1,0,20,2,N-back
8,B,False,False,,True,1,0,20,2,N-back
9,S,False,False,,True,1,0,20,2,N-back
10,S,True,True,0.4937387999962084,True,1,0,20,2,N-back
11,K,False,False,,True,1,0,20,2,N-back
12,M,False,False,,True,1,0,20,2,N-back
13,C,False,False,,True,1,0,20,2,N-back
14,X,False,False,,True,1,0,20,2,N-back
15,X,True,True,0.36126859999785665,True,1,0,20,2,N-back
16,V,False,False,,True,1,0,20,2,N-back
17,V,True,True,0.36167280000518076,True,1,0,20,2,N-back
18,X,False,False,,True,1,0,20,2,N-back
19,X,True,True,0.354360799989081,True,1,0,20,2,N-back
20,H,False,False,,True,1,0,20,2,N-back
21,A,False,False,,True,1,0,20,2,N-back
22,A,True,True,0.46427790001325775,True,1,0,20,2,N-back
23,A,True,True,0.4364653999946313,True,1,0,20,2,N-back
24,O,False,False,,True,1,0,20,2,N-back
25,M,False,False,,True,1,0,20,2,N-back
26,Z,False,False,,True,1,0,20,2,N-back
27,N,False,False,,True,1,0,20,2,N-back
28,K,False,False,,True,1,0,20,2,N-back
29,S,False,False,,True,1,0,20,2,N-back
0,P,False,False,,True,1,1,20,2,N-back
1,S,False,False,,True,1,1,20,2,N-back
2,I,False,False,,True,1,1,20,2,N-back
3,I,True,True,0.3697941999998875,True,1,1,20,2,N-back
4,J,False,False,,True,1,1,20,2,N-back
5,Q,False,False,,True,1,1,20,2,N-back
6,T,False,False,,True,1,1,20,2,N-back
7,F,False,False,,True,1,1,20,2,N-back
8,R,False,False,,True,1,1,20,2,N-back
9,R,True,True,0.4669399999984307,True,1,1,20,2,N-back
10,R,True,False,,False,1,1,20,2,N-back
11,R,True,True,0.4151094000117155,True,1,1,20,2,N-back
12,T,False,False,,True,1,1,20,2,N-back
13,T,True,True,0.3610410999972373,True,1,1,20,2,N-back
14,Q,False,False,,True,1,1,20,2,N-back
15,B,False,False,,True,1,1,20,2,N-back
16,K,False,False,,True,1,1,20,2,N-back
17,Y,False,False,,True,1,1,20,2,N-back
18,Y,True,True,0.3795867000008002,True,1,1,20,2,N-back
19,K,False,False,,True,1,1,20,2,N-back
20,K,True,False,,False,1,1,20,2,N-back
21,K,True,True,0.4770608999970136,True,1,1,20,2,N-back
22,A,False,False,,True,1,1,20,2,N-back
23,A,True,True,0.36129000000073574,True,1,1,20,2,N-back
24,T,False,False,,True,1,1,20,2,N-back
25,Z,False,False,,True,1,1,20,2,N-back
26,K,False,False,,True,1,1,20,2,N-back
27,I,False,False,,True,1,1,20,2,N-back
28,P,False,False,,True,1,1,20,2,N-back
29,K,False,False,,True,1,1,20,2,N-back
0,N,False,False,,True,2,0,20,2,N-back
1,F,False,False,,True,2,0,20,2,N-back
2,X,False,False,,True,2,0,20,2,N-back
3,F,True,True,0.4543431000056444,True,2,0,20,2,N-back
4,R,False,False,,True,2,0,20,2,N-back
5,B,False,False,,True,2,0,20,2,N-back
6,I,False,False,,True,2,0,20,2,N-back
7,B,True,True,0.38619580000522546,True,2,0,20,2,N-back
8,P,False,False,,True,2,0,20,2,N-back
9,V,False,False,,True,2,0,20,2,N-back
10,S,False,False,,True,2,0,20,2,N-back
11,C,False,False,,True,2,0,20,2,N-back
12,N,False,False,,True,2,0,20,2,N-back
13,K,False,False,,True,2,0,20,2,N-back
14,B,False,False,,True,2,0,20,2,N-back
15,P,False,False,,True,2,0,20,2,N-back
16,I,False,False,,True,2,0,20,2,N-back
17,N,False,False,,True,2,0,20,2,N-back
18,C,False,False,,True,2,0,20,2,N-back
19,N,True,True,0.4102522000030149,True,2,0,20,2,N-back
20,Z,False,False,,True,2,0,20,2,N-back
21,N,True,False,,False,2,0,20,2,N-back
22,R,False,False,,True,2,0,20,2,N-back
23,N,True,True,0.39357670000754297,True,2,0,20,2,N-back
24,R,True,False,,False,2,0,20,2,N-back
25,B,False,False,,True,2,0,20,2,N-back
26,R,True,True,0.4499377000029199,True,2,0,20,2,N-back
27,M,False,False,,True,2,0,20,2,N-back
28,O,False,False,,True,2,0,20,2,N-back
29,A,False,False,,True,2,0,20,2,N-back
0,E,False,False,,True,2,1,20,2,N-back
1,R,False,False,,True,2,1,20,2,N-back
2,F,False,False,,True,2,1,20,2,N-back
3,X,False,False,,True,2,1,20,2,N-back
4,C,False,False,,True,2,1,20,2,N-back
5,X,True,True,0.4680445999983931,True,2,1,20,2,N-back
6,M,False,False,,True,2,1,20,2,N-back
7,O,False,False,,True,2,1,20,2,N-back
8,C,False,False,,True,2,1,20,2,N-back
9,O,True,True,0.33057250001002103,True,2,1,20,2,N-back
10,X,False,False,,True,2,1,20,2,N-back
11,O,True,False,,False,2,1,20,2,N-back
12,S,False,False,,True,2,1,20,2,N-back
13,O,True,False,,False,2,1,20,2,N-back
14,A,False,False,,True,2,1,20,2,N-back
15,O,True,False,,False,2,1,20,2,N-back
16,M,False,False,,True,2,1,20,2,N-back
17,O,True,False,,False,2,1,20,2,N-back
18,P,False,False,,True,2,1,20,2,N-back
19,O,True,False,,False,2,1,20,2,N-back
20,K,False,False,,True,2,1,20,2,N-back
21,X,False,False,,True,2,1,20,2,N-back
22,X,False,False,,True,2,1,20,2,N-back
23,G,False,False,,True,2,1,20,2,N-back
24,P,False,False,,True,2,1,20,2,N-back
25,D,False,False,,True,2,1,20,2,N-back
26,J,False,False,,True,2,1,20,2,N-back
27,J,False,False,,True,2,1,20,2,N-back
28,A,False,False,,True,2,1,20,2,N-back
29,O,False,False,,True,2,1,20,2,N-back
