trial,stimulus,target,response,rt,correct,n_back,block,participant_id,session,task
0,U,False,False,,True,0,0,19,1,N-back
1,H,False,False,,True,0,0,19,1,N-back
2,X,True,True,0.322955900002853,True,0,0,19,1,N-back
3,X,True,True,0.36436110000067856,True,0,0,19,1,N-back
4,R,False,False,,True,0,0,19,1,N-back
5,Q,False,False,,True,0,0,19,1,N-back
6,T,False,False,,True,0,0,19,1,N-back
7,U,False,False,,True,0,0,19,1,N-back
8,X,True,True,0.36800880001101177,True,0,0,19,1,N-back
9,X,True,True,0.3091906000045128,True,0,0,19,1,N-back
10,Y,False,False,,True,0,0,19,1,N-back
11,S,False,False,,True,0,0,19,1,N-back
12,X,True,True,0.40444749999733176,True,0,0,19,1,N-back
13,J,False,False,,True,0,0,19,1,N-back
14,C,False,False,,True,0,0,19,1,N-back
15,V,False,False,,True,0,0,19,1,N-back
16,U,False,False,,True,0,0,19,1,N-back
17,X,True,True,0.36926300000050105,True,0,0,19,1,N-back
18,T,False,False,,True,0,0,19,1,N-back
19,Z,False,False,,True,0,0,19,1,N-back
20,O,False,False,,True,0,0,19,1,N-back
21,P,False,False,,True,0,0,19,1,N-back
22,X,True,True,0.47371879999991506,True,0,0,19,1,N-back
23,X,True,True,0.48890309999114834,True,0,0,19,1,N-back
24,G,False,False,,True,0,0,19,1,N-back
25,X,True,True,0.42265799999586307,True,0,0,19,1,N-back
26,H,False,False,,True,0,0,19,1,N-back
27,E,False,False,,True,0,0,19,1,N-back
28,T,False,False,,True,0,0,19,1,N-back
29,G,False,False,,True,0,0,19,1,N-back
0,X,True,False,,False,0,1,19,1,N-back
1,M,False,True,0.40091820000088774,False,0,1,19,1,N-back
2,T,False,True,0.27434570000332315,False,0,1,19,1,N-back
3,X,True,True,0.47233720000076573,True,0,1,19,1,N-back
4,I,False,False,,True,0,1,19,1,N-back
5,Q,False,False,,True,0,1,19,1,N-back
6,G,False,False,,True,0,1,19,1,N-back
7,G,False,False,,True,0,1,19,1,N-back
8,M,False,False,,True,0,1,19,1,N-back
9,I,False,False,,True,0,1,19,1,N-back
10,Y,False,False,,True,0,1,19,1,N-back
11,C,False,False,,True,0,1,19,1,N-back
12,I,False,False,,True,0,1,19,1,N-back
13,V,False,False,,True,0,1,19,1,N-back
14,K,False,False,,True,0,1,19,1,N-back
15,I,False,False,,True,0,1,19,1,N-back
16,Y,False,False,,True,0,1,19,1,N-back
17,W,False,False,,True,0,1,19,1,N-back
18,X,True,False,,False,0,1,19,1,N-back
19,S,False,False,,True,0,1,19,1,N-back
20,B,False,False,,True,0,1,19,1,N-back
21,X,True,True,0.40097940000123344,True,0,1,19,1,N-back
22,F,False,False,,True,0,1,19,1,N-back
23,A,False,False,,True,0,1,19,1,N-back
24,X,True,True,0.40128430000913795,True,0,1,19,1,N-back
25,H,False,False,,True,0,1,19,1,N-back
26,X,True,True,0.3847591999947326,True,0,1,19,1,N-back
27,X,True,True,0.31019269999524113,True,0,1,19,1,N-back
28,Z,False,False,,True,0,1,19,1,N-back
29,Q,False,False,,True,0,1,19,1,N-back
0,Y,False,False,,True,1,0,19,1,N-back
1,K,False,False,,True,1,0,19,1,N-back
2,K,True,True,0.4562573000002885,True,1,0,19,1,N-back
3,M,False,False,,True,1,0,19,1,N-back
4,W,False,False,,True,1,0,19,1,N-back
5,G,False,False,,True,1,0,19,1,N-back
6,G,True,False,,False,1,0,19,1,N-back
7,S,False,False,,True,1,0,19,1,N-back
8,S,True,True,0.40485190000617877,True,1,0,19,1,N-back
9,F,False,False,,True,1,0,19,1,N-back
10,I,False,False,,True,1,0,19,1,N-back
11,L,False,True,0.24097559999790974,False,1,0,19,1,N-back
12,Y,False,False,,True,1,0,19,1,N-back
13,J,False,False,,True,1,0,19,1,N-back
14,D,False,False,,True,1,0,19,1,N-back
15,D,True,True,0.27300479999394156,True,1,0,19,1,N-back
16,D,True,False,,False,1,0,19,1,N-back
17,D,True,True,0.4479554999998072,True,1,0,19,1,N-back
18,R,False,False,,True,1,0,19,1,N-back
19,R,True,False,,False,1,0,19,1,N-back
20,H,False,False,,True,1,0,19,1,N-back
21,Y,False,False,,True,1,0,19,1,N-back
22,A,False,False,,True,1,0,19,1,N-back
23,A,True,False,,False,1,0,19,1,N-back
24,D,False,False,,True,1,0,19,1,N-back
25,M,False,False,,True,1,0,19,1,N-back
26,W,False,False,,True,1,0,19,1,N-back
27,W,True,True,0.39242590000503697,True,1,0,19,1,N-back
28,E,False,False,,True,1,0,19,1,N-back
29,D,False,False,,True,1,0,19,1,N-back
0,J,False,False,,True,1,1,19,1,N-back
1,Y,False,False,,True,1,1,19,1,N-back
2,R,False,False,,True,1,1,19,1,N-back
3,I,False,False,,True,1,1,19,1,N-back
4,I,True,False,,False,1,1,19,1,N-back
5,G,False,False,,True,1,1,19,1,N-back
6,G,True,False,,False,1,1,19,1,N-back
7,C,False,False,,True,1,1,19,1,N-back
8,J,False,False,,True,1,1,19,1,N-back
9,J,True,True,0.49727160000475124,True,1,1,19,1,N-back
10,B,False,False,,True,1,1,19,1,N-back
11,B,True,False,,False,1,1,19,1,N-back
12,N,False,False,,True,1,1,19,1,N-back
13,N,True,True,0.4087165999953868,True,1,1,19,1,N-back
14,N,True,False,,False,1,1,19,1,N-back
15,N,True,True,0.3343281000124989,True,1,1,19,1,N-back
16,H,False,False,,True,1,1,19,1,N-back
17,J,False,False,,True,1,1,19,1,N-back
18,P,False,False,,True,1,1,19,1,N-back
19,R,False,False,,True,1,1,19,1,N-back
20,D,False,False,,True,1,1,19,1,N-back
21,R,False,False,,True,1,1,19,1,N-back
22,J,False,False,,True,1,1,19,1,N-back
23,K,False,False,,True,1,1,19,1,N-back
24,S,False,False,,True,1,1,19,1,N-back
25,Z,False,False,,True,1,1,19,1,N-back
26,Z,True,False,,False,1,1,19,1,N-back
27,A,False,False,,True,1,1,19,1,N-back
28,Z,False,False,,True,1,1,19,1,N-back
29,L,False,False,,True,1,1,19,1,N-back
0,A,False,False,,True,2,0,19,1,N-back
1,E,False,False,,True,2,0,19,1,N-back
2,O,False,False,,True,2,0,19,1,N-back
3,X,False,False,,True,2,0,19,1,N-back
4,H,False,False,,True,2,0,19,1,N-back
5,A,False,False,,True,2,0,19,1,N-back
6,H,True,False,,False,2,0,19,1,N-back
7,A,True,True,0.08078129999921657,True,2,0,19,1,N-back
8,C,False,False,,True,2,0,19,1,N-back
9,A,True,False,,False,2,0,19,1,N-back
10,C,True,False,,False,2,0,19,1,N-back
11,A,True,False,,False,2,0,19,1,N-back
12,C,True,False,,False,2,0,19,1,N-back
13,W,False,False,,True,2,0,19,1,N-back
14,G,False,False,,True,2,0,19,1,N-back
15,T,False,False,,True,2,0,19,1,N-back
16,G,True,False,,False,2,0,19,1,N-back
17,R,False,False,,True,2,0,19,1,N-back
18,U,False,False,,True,2,0,19,1,N-back
19,R,True,True,0.4422841000050539,True,2,0,19,1,N-back
20,N,False,False,,True,2,0,19,1,N-back
21,B,False,False,,True,2,0,19,1,N-back
22,M,False,False,,True,2,0,19,1,N-back
23,J,False,False,,True,2,0,19,1,N-back
24,M,True,False,,False,2,0,19,1,N-back
25,J,True,False,,False,2,0,19,1,N-back
26,M,True,False,,False,2,0,19,1,N-back
27,K,False,False,,True,2,0,19,1,N-back
28,M,True,False,,False,2,0,19,1,N-back
29,K,True,False,,False,2,0,19,1,N-back
0,O,False,False,,True,2,1,19,1,N-back
1,Z,False,False,,True,2,1,19,1,N-back
2,N,False,False,,True,2,1,19,1,N-back
3,J,False,False,,True,2,1,19,1,N-back
4,E,False,False,,True,2,1,19,1,N-back
5,M,False,False,,True,2,1,19,1,N-back
6,Y,False,False,,True,2,1,19,1,N-back
7,Y,False,True,0.4099226000107592,False,2,1,19,1,N-back
8,P,False,False,,True,2,1,19,1,N-back
9,Y,True,False,,False,2,1,19,1,N-back
10,P,True,False,,False,2,1,19,1,N-back
11,F,False,False,,True,2,1,19,1,N-back
12,I,False,False,,True,2,1,19,1,N-back
13,H,False,False,,True,2,1,19,1,N-back
14,M,False,False,,True,2,1,19,1,N-back
15,M,False,False,,True,2,1,19,1,N-back
16,Z,False,False,,True,2,1,19,1,N-back
17,Z,False,False,,True,2,1,19,1,N-back
18,J,False,False,,True,2,1,19,1,N-back
19,J,False,False,,True,2,1,19,1,N-back
20,H,False,False,,True,2,1,19,1,N-back
21,O,False,False,,True,2,1,19,1,N-back
22,R,False,False,,True,2,1,19,1,N-back
23,O,True,False,,False,2,1,19,1,N-back
24,N,False,False,,True,2,1,19,1,N-back
25,O,True,False,,False,2,1,19,1,N-back
26,V,False,False,,True,2,1,19,1,N-back
27,S,False,False,,True,2,1,19,1,N-back
28,H,False,False,,True,2,1,19,1,N-back
29,Z,False,False,,True,2,1,19,1,N-back
