trial,stimulus,target,response,rt,correct,n_back,block,participant_id,session,task
0,W,False,False,,True,0,0,30,2,N-back
1,X,True,True,0.33862070000031963,True,0,0,30,2,N-back
2,X,True,True,0.3969363000001067,True,0,0,30,2,N-back
3,B,False,False,,True,0,0,30,2,N-back
4,X,True,True,0.45030739999992875,True,0,0,30,2,N-back
5,Q,False,False,,True,0,0,30,2,N-back
6,J,False,False,,True,0,0,30,2,N-back
7,A,False,False,,True,0,0,30,2,N-back
8,V,False,False,,True,0,0,30,2,N-back
9,L,False,False,,True,0,0,30,2,N-back
10,X,True,True,0.3628796000002694,True,0,0,30,2,N-back
11,U,False,False,,True,0,0,30,2,N-back
12,Z,False,False,,True,0,0,30,2,N-back
13,C,False,False,,True,0,0,30,2,N-back
14,L,False,False,,True,0,0,30,2,N-back
15,A,False,False,,True,0,0,30,2,N-back
16,X,True,True,0.35941600000023755,True,0,0,30,2,N-back
17,T,False,False,,True,0,0,30,2,N-back
18,F,False,False,,True,0,0,30,2,N-back
19,R,False,False,,True,0,0,30,2,N-back
20,Y,False,False,,True,0,0,30,2,N-back
21,N,False,False,,True,0,0,30,2,N-back
22,X,True,True,0.3837490999999318,True,0,0,30,2,N-back
23,A,False,False,,True,0,0,30,2,N-back
24,T,False,False,,True,0,0,30,2,N-back
25,X,True,True,0.35351649999984147,True,0,0,30,2,N-back
26,X,True,True,0.4608951000000161,True,0,0,30,2,N-back
27,X,True,True,0.39389570000003005,True,0,0,30,2,N-back
28,X,True,True,0.3353359000002456,True,0,0,30,2,N-back
29,M,False,False,,True,0,0,30,2,N-back
0,U,False,False,,True,0,1,30,2,N-back
1,D,False,False,,True,0,1,30,2,N-back
2,G,False,False,,True,0,1,30,2,N-back
3,K,False,False,,True,0,1,30,2,N-back
4,Y,False,False,,True,0,1,30,2,N-back
5,O,False,False,,True,0,1,30,2,N-back
6,A,False,False,,True,0,1,30,2,N-back
7,I,False,False,,True,0,1,30,2,N-back
8,H,False,False,,True,0,1,30,2,N-back
9,X,True,True,0.406794600000012,True,0,1,30,2,N-back
10,E,False,False,,True,0,1,30,2,N-back
11,Y,False,False,,True,0,1,30,2,N-back
12,X,True,True,0.37794420000000173,True,0,1,30,2,N-back
13,C,False,False,,True,0,1,30,2,N-back
14,B,False,False,,True,0,1,30,2,N-back
15,I,False,False,,True,0,1,30,2,N-back
16,X,True,True,0.39792609999994966,True,0,1,30,2,N-back
17,V,False,False,,True,0,1,30,2,N-back
18,E,False,False,,True,0,1,30,2,N-back
19,X,True,True,0.3624012000000221,True,0,1,30,2,N-back
20,E,False,False,,True,0,1,30,2,N-back
21,X,True,True,0.3924802000001364,True,0,1,30,2,N-back
22,Z,False,False,,True,0,1,30,2,N-back
23,V,False,False,,True,0,1,30,2,N-back
24,X,True,True,0.4174444999998741,True,0,1,30,2,N-back
25,X,True,False,,False,0,1,30,2,N-back
26,S,False,False,,True,0,1,30,2,N-back
27,E,False,False,,True,0,1,30,2,N-back
28,X,True,True,0.3890160000000833,True,0,1,30,2,N-back
29,V,False,False,,True,0,1,30,2,N-back
0,X,False,False,,True,1,0,30,2,N-back
1,O,False,False,,True,1,0,30,2,N-back
2,S,False,False,,True,1,0,30,2,N-back
3,S,True,True,0.2992968999997174,True,1,0,30,2,N-back
4,O,False,False,,True,1,0,30,2,N-back
5,W,False,False,,True,1,0,30,2,N-back
6,E,False,False,,True,1,0,30,2,N-back
7,J,False,False,,True,1,0,30,2,N-back
8,I,False,False,,True,1,0,30,2,N-back
9,I,True,True,0.42434940000021015,True,1,0,30,2,N-back
10,I,True,True,0.4239339999994627,True,1,0,30,2,N-back
11,U,False,False,,True,1,0,30,2,N-back
12,G,False,False,,True,1,0,30,2,N-back
13,H,False,False,,True,1,0,30,2,N-back
14,H,True,True,0.3515603000005285,True,1,0,30,2,N-back
15,H,True,True,0.46946870000010676,True,1,0,30,2,N-back
16,E,False,False,,True,1,0,30,2,N-back
17,H,False,False,,True,1,0,30,2,N-back
18,F,False,False,,True,1,0,30,2,N-back
19,H,False,False,,True,1,0,30,2,N-back
20,A,False,False,,True,1,0,30,2,N-back
21,A,True,True,0.4803879000000961,True,1,0,30,2,N-back
22,V,False,False,,True,1,0,30,2,N-back
23,G,False,False,,True,1,0,30,2,N-back
24,S,False,False,,True,1,0,30,2,N-back
25,S,True,True,0.33465369999976247,True,1,0,30,2,N-back
26,C,False,False,,True,1,0,30,2,N-back
27,K,False,False,,True,1,0,30,2,N-back
28,H,False,False,,True,1,0,30,2,N-back
29,W,False,False,,True,1,0,30,2,N-back
0,O,False,False,,True,1,1,30,2,N-back
1,O,True,True,0.4657553999995798,True,1,1,30,2,N-back
2,P,False,False,,True,1,1,30,2,N-back
3,K,False,False,,True,1,1,30,2,N-back
4,S,False,False,,True,1,1,30,2,N-back
5,L,False,False,,True,1,1,30,2,N-back
6,J,False,False,,True,1,1,30,2,N-back
7,Y,False,False,,True,1,1,30,2,N-back
8,D,False,False,,True,1,1,30,2,N-back
9,K,False,False,,True,1,1,30,2,N-back
10,A,False,False,,True,1,1,30,2,N-back
11,A,True,True,0.4401743999997052,True,1,1,30,2,N-back
12,G,False,False,,True,1,1,30,2,N-back
13,R,False,False,,True,1,1,30,2,N-back
14,H,False,False,,True,1,1,30,2,N-back
15,X,False,False,,True,1,1,30,2,N-back
16,Z,False,False,,True,1,1,30,2,N-back
17,Z,True,False,,False,1,1,30,2,N-back
18,Y,False,False,,True,1,1,30,2,N-back
19,F,False,False,,True,1,1,30,2,N-back
20,V,False,False,,True,1,1,30,2,N-back
21,R,False,False,,True,1,1,30,2,N-back
22,I,False,False,,True,1,1,30,2,N-back
23,J,False,False,,True,1,1,30,2,N-back
24,A,False,False,,True,1,1,30,2,N-back
25,A,True,True,0.34601089999978285,True,1,1,30,2,N-back
26,A,True,False,,False,1,1,30,2,N-back
27,A,True,True,0.39353660000051605,True,1,1,30,2,N-back
28,S,False,False,,True,1,1,30,2,N-back
29,S,True,True,0.30385260000002745,True,1,1,30,2,N-back
0,H,False,False,,True,2,0,30,2,N-back
1,Q,False,False,,True,2,0,30,2,N-back
2,A,False,False,,True,2,0,30,2,N-back
3,E,False,False,,True,2,0,30,2,N-back
4,A,True,False,,False,2,0,30,2,N-back
5,E,True,False,,False,2,0,30,2,N-back
6,W,False,False,,True,2,0,30,2,N-back
7,F,False,False,,True,2,0,30,2,N-back
8,G,False,False,,True,2,0,30,2,N-back
9,Q,False,False,,True,2,0,30,2,N-back
10,J,False,False,,True,2,0,30,2,N-back
11,X,False,False,,True,2,0,30,2,N-back
12,N,False,False,,True,2,0,30,2,N-back
13,D,False,False,,True,2,0,30,2,N-back
14,W,False,False,,True,2,0,30,2,N-back
15,D,True,True,0.4087459000002127,True,2,0,30,2,N-back
16,I,False,False,,True,2,0,30,2,N-back
17,A,False,False,,True,2,0,30,2,N-back
18,Q,False,False,,True,2,0,30,2,N-back
19,G,False,False,,True,2,0,30,2,N-back
20,R,False,False,,True,2,0,30,2,N-back
21,B,False,False,,True,2,0,30,2,N-back
22,B,False,False,,True,2,0,30,2,N-back
23,B,True,False,,False,2,0,30,2,N-back
24,C,False,False,,True,2,0,30,2,N-back
25,Z,False,False,,True,2,0,30,2,N-back
26,X,False,False,,True,2,0,30,2,N-back
27,N,False,False,,True,2,0,30,2,N-back
28,S,False,False,,True,2,0,30,2,N-back
29,A,False,False,,True,2,0,30,2,N-back
0,A,False,False,,True,2,1,30,2,N-back
1,S,False,False,,True,2,1,30,2,N-back
2,V,False,False,,True,2,1,30,2,N-back
3,J,False,False,,True,2,1,30,2,N-back
4,D,False,False,,True,2,1,30,2,N-back
5,J,True,False,,False,2,1,30,2,N-back
6,D,True,False,,False,2,1,30,2,N-back
7,J,True,False,,False,2,1,30,2,N-back
8,M,False,False,,True,2,1,30,2,N-back
9,B,False,False,,True,2,1,30,2,N-back
10,C,False,False,,True,2,1,30,2,N-back
11,O,False,False,,True,2,1,30,2,N-back
12,B,False,False,,True,2,1,30,2,N-back
13,Q,False,False,,True,2,1,30,2,N-back
14,H,False,False,,True,2,1,30,2,N-back
15,V,False,False,,True,2,1,30,2,N-back
16,T,False,False,,True,2,1,30,2,N-back
17,V,True,False,,False,2,1,30,2,N-back
18,T,True,False,,False,2,1,30,2,N-back
19,Y,False,False,,True,2,1,30,2,N-back
20,I,False,False,,True,2,1,30,2,N-back
21,N,False,False,,True,2,1,30,2,N-back
22,I,True,True,0.29987119999987044,True,2,1,30,2,N-back
23,T,False,False,,True,2,1,30,2,N-back
24,C,False,False,,True,2,1,30,2,N-back
25,K,False,False,,True,2,1,30,2,N-back
26,D,False,False,,True,2,1,30,2,N-back
27,K,True,True,0.41551049999998213,True,2,1,30,2,N-back
28,I,False,False,,True,2,1,30,2,N-back
29,F,False,False,,True,2,1,30,2,N-back
